                                                                                               alfa-MeOH                                                                       
 Results from the BirchMurn EOS
 *****************************************************************************************************************************
 Volume (cm**3/mol)
                                           P(kbar)
    T(K)    1.0000E-03    1.0000E-02    1.0000E-01    1.0000E+00    5.0000E+00    1.0000E+01    2.5000E+01    5.0000E+01    1.0000E+02
   25.00    51.3597606    51.3628752    51.3943647    51.6774632    52.6060549    53.4752523    55.4764892    58.1608937    62.9754617
   50.00    51.2498322    51.2528917    51.2866931    51.5857781    52.5387751    53.4171684    55.4256321    58.1100593    62.9157910
   75.00    51.0367075    51.0404926    51.0804101    51.4182596    52.4227113    53.3191980    55.3422466    58.0284705    62.8219964
  100.00    50.7190742    50.7248520    50.7817033    51.2040531    52.2906892    53.2128365    55.2577628    57.9510064    62.7398132
  125.00    50.5302302    50.5398089    50.6257130    51.1400333    52.2894459    53.2336360    55.3087303    58.0332493    62.8795065
  150.00    50.4847252    50.4996133    50.6174340    51.1913305    52.3773126    53.3396439    55.4497183    58.2215769    63.1673047
  175.00    50.5223715    50.5429797    50.6856330    51.2921814    52.5043256    53.4842447    55.6333810    58.4620959    63.5313808
  200.00    50.6256859    50.6480565    50.7976210    51.4175856    52.6510440    53.6485589    55.8393444    58.7305445    63.9380837
  225.00    50.7269590    50.7527290    50.9135521    51.5503242    52.8074952    53.8242481    56.0604818    59.0200943    64.3804621
  250.00    50.8424526    50.8704569    51.0384909    51.6890492    52.9696586    54.0060769    56.2892939    59.3202475    64.8418871
  275.00    50.9669289    50.9964475    51.1697376    51.8330753    53.1376088    54.1944078    56.5266346    59.6325310    65.3256018
  300.00    51.1008758    51.1313679    51.3087280    51.9846838    53.3143654    54.3927978    56.7773240    59.9637450    65.8433447
  325.00    51.2406062    51.2711458    51.4505427    52.1380026    53.4927539    54.5930132    57.0306150    60.2993411    66.3720955
  350.00    51.3774258    51.4092707    51.5935408    52.2945360    53.6757233    54.7987612    57.2917834    60.6469093    66.9250884
  375.00    51.5198255    51.5529371    51.7420337    52.4570307    53.8659277    55.0129328    57.5645100    61.0115664    67.5114962
  400.00    51.6662324    51.6998673    51.8922268    52.6203634    54.0568554    55.2279432    57.8386740    61.3793018    68.1083463
  425.00    51.8159713    51.8502294    52.0461346    52.7879702    54.2531112    55.4492464    58.1217350    61.7607597    68.7345308
  450.00    51.9668689    52.0017508    52.2012285    52.9569207    54.4511107    55.6727073    58.4082261    62.1484206    69.3779426
  475.00    52.1200216    52.1555526    52.3587046    53.1285781    54.6525321    55.9002807    58.7008046    62.5461375    70.0460131
  500.00    52.2738837    52.3100231    52.5167791    53.3008778    54.8548434    56.1290377    58.9955734    62.9485057    70.7299936
 *****************************************************************************************************************************
 Energy (kJ/mol)
                                           P(kbar)
    T(K)    1.0000E-03    1.0000E-02    1.0000E-01    1.0000E+00    5.0000E+00    1.0000E+01    2.5000E+01    5.0000E+01    1.0000E+02
   25.00  -152276.1938  -152276.1938  -152276.1939  -152276.2091  -152276.4759  -152277.1199  -152280.5523  -152290.5290  -152326.5472
   50.00  -152276.4186  -152276.4187  -152276.4188  -152276.4348  -152276.7078  -152277.3583  -152280.8017  -152290.7772  -152326.7262
   75.00  -152276.9522  -152276.9522  -152276.9524  -152276.9703  -152277.2560  -152277.9193  -152281.3852  -152291.3651  -152327.2175
  100.00  -152277.7887  -152277.7887  -152277.7890  -152277.8109  -152278.1163  -152278.7978  -152282.2978  -152292.3012  -152328.1129
  125.00  -152278.8754  -152278.8754  -152278.8759  -152278.9016  -152279.2220  -152279.9194  -152283.4694  -152293.5885  -152329.8332
  150.00  -152280.2129  -152280.2130  -152280.2136  -152280.2416  -152280.5711  -152281.2817  -152284.8913  -152295.1871  -152332.1855
  175.00  -152281.7981  -152281.7981  -152281.7989  -152281.8281  -152282.1645  -152282.8881  -152286.5649  -152297.0734  -152335.0094
  200.00  -152283.6171  -152283.6172  -152283.6179  -152283.6478  -152283.9901  -152284.7267  -152288.4753  -152299.2179  -152338.2039
  225.00  -152285.6640  -152285.6640  -152285.6649  -152285.6954  -152286.0443  -152286.7951  -152290.6221  -152301.6211  -152341.7688
  250.00  -152287.9245  -152287.9245  -152287.9254  -152287.9565  -152288.3119  -152289.0773  -152292.9854  -152304.2518  -152345.6264
  275.00  -152290.3925  -152290.3925  -152290.3934  -152290.4251  -152290.7872  -152291.5676  -152295.5604  -152307.1079  -152349.7878
  300.00  -152293.0655  -152293.0656  -152293.0664  -152293.0988  -152293.4679  -152294.2644  -152298.3475  -152310.1971  -152354.2987
  325.00  -152295.9326  -152295.9326  -152295.9335  -152295.9665  -152296.3426  -152297.1553  -152301.3301  -152313.4887  -152359.0639
  350.00  -152298.9939  -152298.9939  -152298.9948  -152299.0284  -152299.4118  -152300.2414  -152304.5120  -152316.9952  -152364.1392
  375.00  -152302.2463  -152302.2464  -152302.2473  -152302.2815  -152302.6728  -152303.5201  -152307.8920  -152320.7205  -152369.5600
  400.00  -152305.6829  -152305.6829  -152305.6838  -152305.7187  -152306.1177  -152306.9829  -152311.4571  -152324.6374  -152375.2306
  425.00  -152309.3031  -152309.3032  -152309.3041  -152309.3397  -152309.7467  -152310.6304  -152315.2116  -152328.7619  -152381.2307
  450.00  -152313.1015  -152313.1016  -152313.1026  -152313.1388  -152313.5539  -152314.4565  -152319.1468  -152333.0779  -152387.5092
  475.00  -152317.0767  -152317.0767  -152317.0777  -152317.1146  -152317.5381  -152318.4601  -152323.2631  -152337.5899  -152394.0986
  500.00  -152321.2237  -152321.2237  -152321.2248  -152321.2623  -152321.6942  -152322.6359  -152327.5532  -152342.2854  -152400.9611
 *****************************************************************************************************************************
 Gibbs Free Energy (kJ/mol)
                                           P(kbar)
    T(K)    1.0000E-03    1.0000E-02    1.0000E-01    1.0000E+00    5.0000E+00    1.0000E+01    2.5000E+01    5.0000E+01    1.0000E+02
   25.00  -152276.1886  -152276.1424  -152275.6800  -152271.0414  -152250.1729  -152223.6446  -152141.8611  -151999.7245  -151696.7926
   50.00  -152276.4135  -152276.3674  -152275.9060  -152271.2763  -152250.4384  -152223.9411  -152142.2376  -152000.2269  -151697.5683
   75.00  -152276.9471  -152276.9011  -152276.4416  -152271.8285  -152251.0447  -152224.6001  -152143.0296  -152001.2228  -151698.9975
  100.00  -152277.7837  -152277.7380  -152277.2812  -152272.6905  -152251.9710  -152225.5850  -152144.1534  -152002.5462  -151700.7147
  125.00  -152278.8704  -152278.8249  -152278.3696  -152273.7876  -152253.0773  -152226.6858  -152145.1976  -152003.4222  -151701.0381
  150.00  -152280.2079  -152280.1625  -152279.7074  -152275.1224  -152254.3824  -152227.9421  -152146.2670  -152004.0792  -151700.5125
  175.00  -152281.7931  -152281.7476  -152281.2920  -152276.6989  -152255.9124  -152229.4039  -152147.4814  -152004.7629  -151699.6956
  200.00  -152283.6121  -152283.5665  -152283.1099  -152278.5060  -152257.6646  -152231.0781  -152148.8769  -152005.5652  -151698.8231
  225.00  -152285.6590  -152285.6133  -152285.1557  -152280.5404  -152259.6405  -152232.9708  -152150.4709  -152006.5206  -151697.9642
  250.00  -152287.9194  -152287.8736  -152287.4150  -152282.7876  -152261.8271  -152235.0712  -152152.2621  -152007.6506  -151697.2075
  275.00  -152290.3874  -152290.3415  -152289.8817  -152285.2418  -152264.2184  -152237.3732  -152154.2438  -152008.9452  -151696.5318
  300.00  -152293.0604  -152293.0144  -152292.5533  -152287.9003  -152266.8107  -152239.8716  -152156.4041  -152010.3784  -151695.8653
  325.00  -152295.9275  -152295.8814  -152295.4190  -152290.7527  -152269.5962  -152242.5622  -152158.7535  -152011.9920  -151695.3430
  350.00  -152298.9887  -152298.9425  -152298.4788  -152293.7989  -152272.5740  -152245.4426  -152161.2826  -152013.7606  -151694.8883
  375.00  -152302.2412  -152302.1948  -152301.7299  -152297.0358  -152275.7398  -152248.5072  -152163.9807  -152015.6627  -151694.4450
  400.00  -152305.6777  -152305.6312  -152305.1649  -152300.4567  -152279.0893  -152251.7549  -152166.8604  -152017.7409  -151694.1471
  425.00  -152309.2980  -152309.2513  -152308.7837  -152304.0609  -152282.6201  -152255.1812  -152169.9072  -152019.9581  -151693.8854
  450.00  -152313.0964  -152313.0496  -152312.5805  -152307.8431  -152286.3283  -152258.7838  -152173.1263  -152022.3358  -151693.7298
  475.00  -152317.0715  -152317.0246  -152316.5542  -152311.8018  -152290.2119  -152262.5599  -152176.5111  -152024.8592  -151693.6385
  500.00  -152321.2185  -152321.1714  -152320.6996  -152315.9322  -152294.2668  -152266.5068  -152180.0643  -152027.5428  -151693.6611
