                                                                                               alfa-MeOH                                                                       
 Results from the Murnaghan EOS
 *****************************************************************************************************************************
 Volume (cm**3/mol)
                                           P(kbar)
    T(K)    1.0000E-03    1.0000E-02    1.0000E-01    1.0000E+00    5.0000E+00    1.0000E+01    2.5000E+01    5.0000E+01    1.0000E+02
   25.00    49.0002487    48.9952504    48.9864533    48.8539304    48.3480609    47.7983444    46.5152725    45.0533984    43.2312187
   50.00    49.0300722    49.0250657    49.0162000    48.8823658    48.3718418    47.8177773    46.5269632    45.0594469    43.2335160
   75.00    49.0898988    49.0848758    49.0758787    48.9395382    48.4201179    47.8577347    46.5520357    45.0734900    43.2398760
  100.00    49.1731035    49.1680576    49.1588808    49.0191177    48.4875740    47.9138831    46.5879796    45.0943932    43.2500692
  125.00    49.2734852    49.2684113    49.2590168    49.1151166    48.5689685    47.9817218    46.6317279    45.1202523    43.2630772
  150.00    49.3875190    49.3824128    49.3727675    49.2241033    48.6612131    48.0585275    46.6813187    45.1497746    43.2781676
  175.00    49.5142011    49.5090581    49.4991269    49.3450374    48.7631846    48.1431555    46.7357036    45.1821142    43.2947567
  200.00    49.6504755    49.6452921    49.6350461    49.4749912    48.8724081    48.2335796    46.7936942    45.2167006    43.3126604
  225.00    49.7982825    49.7930540    49.7824541    49.6156993    48.9899948    48.3304162    46.8552257    45.2531554    43.3314587
  250.00    49.9549458    49.9496682    49.9386826    49.7646366    49.1139454    48.4321690    46.9196738    45.2914056    43.3513061
  275.00    50.1221602    50.1168287    50.1054161    49.9233088    49.2452108    48.5393706    46.9870279    45.3312049    43.3719282
  300.00    50.3013756    50.2959843    50.2840943    50.0929873    49.3845650    48.6524481    47.0573123    45.3724271    43.3931838
  325.00    50.4931941    50.4877367    50.4753125    50.2992859    49.5322006    48.7714404    47.1304744    45.4150392    43.4150670
  350.00    50.6990881    50.6935566    50.6805310    50.4946157    49.6888362    48.8967276    47.2065606    45.4589868    43.4375105
  375.00    50.9166262    50.9110137    50.8973251    50.6724440    49.8526686    49.0270199    47.2851616    45.5043710    43.4607839
  400.00    51.1547077    51.1490021    51.1273079    50.8951848    50.0288561    49.1654695    47.3668937    45.5506977    43.4841745
  425.00    51.4155634    51.4097504    51.3867017    51.1381964    50.2185631    49.3129032    47.4523786    45.5985092    43.5080390
  450.00    51.6941747    51.6882413    51.6636614    51.3967048    50.4180291    49.4666028    47.5406216    45.6477875    43.5327405
  475.00    51.9957385    51.9896674    51.9633186    51.6751341    50.6298084    49.6280311    47.6319714    45.6984515    43.5580703
  500.00    52.3189385    52.3127115    52.2843415    51.9720166    50.8524517    49.7961061    47.7261364    45.7506492    43.5842919
 *****************************************************************************************************************************
 Energy (kJ/mol)
                                           P(kbar)
    T(K)    1.0000E-03    1.0000E-02    1.0000E-01    1.0000E+00    5.0000E+00    1.0000E+01    2.5000E+01    5.0000E+01    1.0000E+02
   25.00  -152277.1663  -152277.1663  -152277.1663  -152277.1595  -152277.0100  -152276.6011  -152274.4115  -152269.0537  -152255.7873
   50.00  -152277.3327  -152277.3327  -152277.3327  -152277.3258  -152277.1749  -152276.7628  -152274.5604  -152269.1825  -152255.8900
   75.00  -152277.7721  -152277.7721  -152277.7721  -152277.7651  -152277.6116  -152277.1934  -152274.9663  -152269.5491  -152256.2029
  100.00  -152278.5121  -152278.5121  -152278.5121  -152278.5049  -152278.3480  -152277.9213  -152275.6607  -152270.1899  -152256.7687
  125.00  -152279.5405  -152279.5406  -152279.5405  -152279.5331  -152279.3719  -152278.9353  -152276.6348  -152271.1001  -152257.5888
  150.00  -152280.8395  -152280.8395  -152280.8395  -152280.8318  -152280.6658  -152280.2178  -152277.8722  -152272.2659  -152258.6533
  175.00  -152282.3936  -152282.3936  -152282.3936  -152282.3856  -152282.2140  -152281.7533  -152279.3576  -152273.6728  -152259.9497
  200.00  -152284.1887  -152284.1887  -152284.1887  -152284.1805  -152284.0029  -152283.5283  -152281.0790  -152275.3108  -152261.4707
  225.00  -152286.2158  -152286.2158  -152286.2158  -152286.2072  -152286.0229  -152285.5331  -152283.0255  -152277.1680  -152263.2041
  250.00  -152288.4659  -152288.4659  -152288.4659  -152288.4569  -152288.2654  -152287.7592  -152285.1901  -152279.2393  -152265.1464
  275.00  -152290.9331  -152290.9331  -152290.9331  -152290.9237  -152290.7243  -152290.2004  -152287.5657  -152281.5169  -152267.2895
  300.00  -152293.6130  -152293.6130  -152293.6130  -152293.6031  -152293.3949  -152292.8518  -152290.1467  -152283.9946  -152269.6273
  325.00  -152296.5017  -152296.5017  -152296.5017  -152296.4937  -152296.2735  -152295.7094  -152292.9290  -152286.6685  -152272.1560
  350.00  -152299.5966  -152299.5966  -152299.5966  -152299.5881  -152299.3571  -152298.7700  -152295.9090  -152289.5344  -152274.8715
  375.00  -152302.8931  -152302.8931  -152302.8931  -152302.8814  -152302.6413  -152302.0296  -152299.0841  -152292.5918  -152277.7741
  400.00  -152306.3919  -152306.3919  -152306.3918  -152306.3795  -152306.1261  -152305.4867  -152302.4486  -152295.8310  -152280.8530
  425.00  -152310.0950  -152310.0950  -152310.0949  -152310.0817  -152309.8131  -152309.1429  -152306.0039  -152299.2531  -152284.1080
  450.00  -152313.9955  -152313.9955  -152313.9954  -152313.9812  -152313.6959  -152312.9922  -152309.7469  -152302.8584  -152287.5417
  475.00  -152318.0933  -152318.0933  -152318.0932  -152318.0779  -152317.7737  -152317.0333  -152313.6744  -152306.6423  -152291.1489
  500.00  -152322.3853  -152322.3853  -152322.3852  -152322.3686  -152322.0435  -152321.2633  -152317.7849  -152310.6048  -152294.9301
 *****************************************************************************************************************************
 Gibbs Free Energy (kJ/mol)
                                           P(kbar)
    T(K)    1.0000E-03    1.0000E-02    1.0000E-01    1.0000E+00    5.0000E+00    1.0000E+01    2.5000E+01    5.0000E+01    1.0000E+02
   25.00  -152277.1614  -152277.1174  -152276.6765  -152272.2741  -152252.8360  -152228.8027  -152158.1233  -152043.7867  -151823.4751
   50.00  -152277.3278  -152277.2837  -152276.8425  -152272.4376  -152252.9890  -152228.9450  -152158.2430  -152043.8853  -151823.5548
   75.00  -152277.7672  -152277.7230  -152277.2814  -152272.8711  -152253.4016  -152229.3356  -152158.5862  -152044.1816  -151823.8041
  100.00  -152278.5072  -152278.4630  -152278.0206  -152273.6030  -152254.1042  -152230.0075  -152159.1908  -152044.7179  -151824.2680
  125.00  -152279.5356  -152279.4913  -152279.0480  -152274.6216  -152255.0874  -152230.9536  -152160.0554  -152045.4989  -151824.9580
  150.00  -152280.8346  -152280.7901  -152280.3458  -152275.9094  -152256.3352  -152232.1593  -152161.1689  -152046.5171  -151825.8717
  175.00  -152282.3886  -152282.3441  -152281.8986  -152277.4511  -152257.8324  -152233.6101  -152162.5184  -152047.7622  -151827.0022
  200.00  -152284.1838  -152284.1391  -152283.6924  -152279.2330  -152259.5667  -152235.2947  -152164.0948  -152049.2273  -151828.3441
  225.00  -152286.2108  -152286.1660  -152285.7180  -152281.2456  -152261.5279  -152237.2027  -152165.8874  -152050.9022  -151829.8895
  250.00  -152288.4609  -152288.4159  -152287.9665  -152283.4804  -152263.7084  -152239.3270  -152167.8909  -152052.7823  -151831.6333
  275.00  -152290.9281  -152290.8830  -152290.4320  -152285.9313  -152266.1017  -152241.6610  -152170.0981  -152054.8609  -151833.5702
  300.00  -152293.6079  -152293.5627  -152293.1101  -152288.5938  -152268.7026  -152244.1993  -152172.5034  -152057.1325  -151835.6955
  325.00  -152296.4967  -152296.4513  -152295.9970  -152291.4638  -152271.5074  -152246.9379  -152175.1028  -152059.5933  -151838.0054
  350.00  -152299.5915  -152299.5459  -152299.0898  -152294.5386  -152274.5127  -152249.8732  -152177.8926  -152062.2395  -151840.4964
  375.00  -152302.8880  -152302.8422  -152302.3841  -152297.8142  -152277.7150  -152253.0026  -152180.8712  -152065.0699  -151843.1662
  400.00  -152306.3867  -152306.3407  -152305.8805  -152301.2900  -152281.1116  -152256.3213  -152184.0314  -152068.0775  -151846.0113
  425.00  -152310.0899  -152310.0436  -152309.5811  -152304.9679  -152284.7039  -152259.8300  -152187.3730  -152071.2605  -151849.0276
  450.00  -152313.9903  -152313.9438  -152313.4788  -152308.8416  -152288.4868  -152263.5256  -152190.8953  -152074.6194  -151852.2143
  475.00  -152318.0881  -152318.0413  -152317.5736  -152312.9104  -152292.4588  -152267.4053  -152194.5945  -152078.1500  -151855.5682
  500.00  -152322.3801  -152322.3330  -152321.8624  -152317.1714  -152296.6172  -152271.4672  -152198.4695  -152081.8515  -151859.0872
