                                                                                               alfa-MeOH                                                                       
 Results from the Vinet_exp EOS
 *****************************************************************************************************************************
 Volume (cm**3/mol)
                                           P(kbar)
    T(K)    1.0000E-03    1.0000E-02    1.0000E-01    1.0000E+00    5.0000E+00    1.0000E+01    2.5000E+01    5.0000E+01    1.0000E+02
   25.00    48.8443347    48.8332986    48.7704392    48.2138743    46.5381984    45.2166496    42.9220091    40.8646706    38.6250642
   50.00    48.8710862    48.8600213    48.7965849    48.2348887    46.5488937    45.2226775    42.9239852    40.8655861    38.6264171
   75.00    48.9239704    48.9128492    48.8483255    48.2769817    46.5715318    45.2363728    42.9295427    40.8685176    38.6293811
  100.00    48.9961029    48.9849046    48.9189532    48.3349850    46.6040335    45.2569460    42.9387021    40.8732814    38.6329735
  125.00    49.0821084    49.0708168    49.0031698    48.4042787    46.6433668    45.2822121    42.9501941    40.8790506    38.6366015
  150.00    49.1823636    49.1709612    49.1013143    48.4849318    46.6893930    45.3121385    42.9643669    40.8866002    38.6415370
  175.00    49.2960620    49.2845287    49.2125078    48.5755245    46.7400402    45.3445817    42.9792974    40.8943732    38.6467043
  200.00    49.4229801    49.4112944    49.3365019    48.6756863    46.7950523    45.3794565    42.9951248    40.9026227    38.6524123
  225.00    49.5617135    49.5498537    49.4718947    48.7841313    46.8536847    45.4163294    43.0116811    40.9112179    38.6584400
  250.00    49.7104822    49.6984279    49.6169635    48.8996862    46.9158717    45.4555013    43.0292882    40.9201248    38.6641480
  275.00    49.8749595    49.8626764    49.7770388    49.0251145    46.9809175    45.4954926    43.0467515    40.9292800    38.6711734
  300.00    50.0399565    50.0274351    49.9375289    49.1506078    47.0467084    45.5366298    43.0652229    40.9386755    38.6771865
  325.00    50.2126938    50.1999126    50.1054044    49.3066129    47.1153736    45.5799813    43.0850872    40.9487400    38.6830411
  350.00    50.3792129    50.3661725    50.2671153    49.4330847    47.1817433    45.6224899    43.1052607    40.9592506    38.6889377
  375.00    50.5996824    50.5862612    50.4803568    49.5943889    47.2592451    45.6688576    43.1247738    40.9691217    38.6963847
  400.00    50.8012164    50.7874364    50.6752267    49.7127946    47.3329346    45.7148459    43.1457582    40.9797813    38.7025457
  425.00    51.0048069    50.9906494    50.8718879    49.8599565    47.4076953    45.7621706    43.1678190    40.9907659    38.7078969
  450.00    51.2440225    51.2293777    51.1020473    50.0269743    47.4874057    45.8106226    43.1892110    41.0016932    38.7149666
  475.00    51.5355391    51.5202394    51.3813787    50.2238430    47.5766210    45.8629864    43.2108017    41.0121955    38.7222911
  500.00    51.8041221    51.7881837    51.6382320    50.4036128    47.6598805    45.9135080    43.2332744    41.0236243    38.7292602
 *****************************************************************************************************************************
 Energy (kJ/mol)
                                           P(kbar)
    T(K)    1.0000E-03    1.0000E-02    1.0000E-01    1.0000E+00    5.0000E+00    1.0000E+01    2.5000E+01    5.0000E+01    1.0000E+02
   25.00  -152276.6319  -152276.6319  -152276.6317  -152276.6022  -152276.1292  -152275.1600  -152271.3344  -152263.8679  -152247.6544
   50.00  -152276.7891  -152276.7891  -152276.7888  -152276.7591  -152276.2834  -152275.3109  -152271.4789  -152264.0090  -152247.7992
   75.00  -152277.2082  -152277.2082  -152277.2080  -152277.1778  -152276.6970  -152275.7180  -152271.8734  -152264.3946  -152248.1860
  100.00  -152277.9202  -152277.9202  -152277.9199  -152277.8891  -152277.4016  -152276.4141  -152272.5516  -152265.0577  -152248.8418
  125.00  -152278.9088  -152278.9088  -152278.9085  -152278.8769  -152278.3815  -152277.3840  -152273.4998  -152265.9860  -152249.7560
  150.00  -152280.1786  -152280.1786  -152280.1783  -152280.1458  -152279.6414  -152278.6324  -152274.7233  -152267.1866  -152250.9391
  175.00  -152281.6961  -152281.6961  -152281.6958  -152281.6623  -152281.1474  -152280.1254  -152276.1887  -152268.6272  -152252.3627
  200.00  -152283.4554  -152283.4554  -152283.4551  -152283.4204  -152282.8937  -152281.8573  -152277.8908  -152270.3031  -152254.0220
  225.00  -152285.4454  -152285.4454  -152285.4451  -152285.4090  -152284.8694  -152283.8175  -152279.8191  -152272.2039  -152255.9063
  250.00  -152287.6592  -152287.6592  -152287.6589  -152287.6212  -152287.0679  -152285.9995  -152281.9673  -152274.3220  -152258.0033
  275.00  -152290.0878  -152290.0878  -152290.0875  -152290.0481  -152289.4793  -152288.3930  -152284.3256  -152276.6518  -152260.3199
  300.00  -152292.7140  -152292.7140  -152292.7136  -152292.6724  -152292.0883  -152290.9845  -152286.8815  -152279.1763  -152262.8220
  325.00  -152295.5510  -152295.5510  -152295.5506  -152295.5101  -152294.9076  -152293.7858  -152289.6458  -152281.9066  -152265.5239
  350.00  -152298.5612  -152298.5612  -152298.5608  -152298.5185  -152297.9009  -152296.7621  -152292.5870  -152284.8141  -152268.3999
  375.00  -152301.8157  -152301.8158  -152301.8153  -152301.7706  -152301.1320  -152299.9711  -152295.7541  -152287.9481  -152271.5191
  400.00  -152305.2316  -152305.2316  -152305.2311  -152305.1812  -152304.5271  -152303.3465  -152299.0903  -152291.2484  -152274.7889
  425.00  -152308.8315  -152308.8316  -152308.8310  -152308.7787  -152308.1064  -152306.9062  -152302.6103  -152294.7298  -152278.2316
  450.00  -152312.6364  -152312.6364  -152312.6358  -152312.5804  -152311.8863  -152310.6639  -152306.3257  -152298.4090  -152281.8853
  475.00  -152316.6714  -152316.6714  -152316.6708  -152316.6114  -152315.8907  -152314.6422  -152310.2561  -152302.3013  -152285.7574
  500.00  -152320.8434  -152320.8434  -152320.8427  -152320.7796  -152320.0351  -152318.7634  -152314.3335  -152306.3404  -152289.7667
 *****************************************************************************************************************************
 Gibbs Free Energy (kJ/mol)
                                           P(kbar)
    T(K)    1.0000E-03    1.0000E-02    1.0000E-01    1.0000E+00    5.0000E+00    1.0000E+01    2.5000E+01    5.0000E+01    1.0000E+02
   25.00  -152276.6270  -152276.5831  -152276.1440  -152271.7808  -152252.8601  -152229.9434  -152164.0293  -152059.5445  -151861.4038
   50.00  -152276.7842  -152276.7402  -152276.3008  -152271.9356  -152253.0090  -152230.0882  -152164.1690  -152059.6810  -151861.5350
   75.00  -152277.2033  -152277.1593  -152276.7195  -152272.3501  -152253.4112  -152230.4817  -152164.5496  -152060.0520  -151861.8922
  100.00  -152277.9153  -152277.8712  -152277.4307  -152273.0556  -152254.0996  -152231.1572  -152165.2048  -152060.6913  -151862.5121
  125.00  -152278.9038  -152278.8597  -152278.4185  -152274.0364  -152255.0598  -152232.1018  -152166.1243  -152061.5907  -151863.3900
  150.00  -152280.1737  -152280.1294  -152279.6873  -152275.2973  -152256.2967  -152233.3202  -152167.3124  -152062.7536  -151864.5238
  175.00  -152281.6912  -152281.6468  -152281.2037  -152276.8047  -152257.7774  -152234.7808  -152168.7405  -152064.1554  -151865.8956
  200.00  -152283.4505  -152283.4060  -152282.9618  -152278.5528  -152259.4962  -152236.4779  -152170.4030  -152065.7900  -151867.4979
  225.00  -152285.4405  -152285.3959  -152284.9504  -152280.5306  -152261.4426  -152238.4012  -152172.2899  -152067.6479  -151869.3219
  250.00  -152287.6542  -152287.6095  -152287.1627  -152282.7313  -152263.6100  -152240.5440  -152174.3941  -152069.7214  -151871.3618
  275.00  -152290.0828  -152290.0380  -152289.5897  -152285.1456  -152265.9888  -152242.8975  -152176.7087  -152072.0054  -151873.6081
  300.00  -152292.7090  -152292.6639  -152292.2142  -152287.7574  -152268.5649  -152245.4479  -152179.2184  -152074.4829  -151876.0501
  325.00  -152295.5460  -152295.5008  -152295.0495  -152290.5794  -152271.3499  -152248.2058  -152181.9331  -152077.1629  -151878.6935
  350.00  -152298.5561  -152298.5108  -152298.0581  -152293.5752  -152274.3100  -152251.1396  -152184.8238  -152080.0178  -151881.5105
  375.00  -152301.8107  -152301.7652  -152301.3105  -152296.8111  -152277.5024  -152254.3022  -152187.9422  -152083.1025  -151884.5552
  400.00  -152305.2265  -152305.1808  -152304.7244  -152300.2100  -152280.8606  -152257.6316  -152191.2259  -152086.3495  -151887.7635
  425.00  -152308.8264  -152308.7806  -152308.3223  -152303.7927  -152284.4026  -152261.1440  -152194.6907  -152089.7759  -151891.1526
  450.00  -152312.6312  -152312.5851  -152312.1248  -152307.5777  -152288.1426  -152264.8533  -152198.3527  -152093.4006  -151894.7357
  475.00  -152316.6662  -152316.6199  -152316.1570  -152311.5890  -152292.1024  -152268.7792  -152202.2291  -152097.2403  -151898.5345
  500.00  -152320.8382  -152320.7916  -152320.3263  -152315.7392  -152296.2052  -152272.8499  -152206.2503  -152101.2223  -151902.4741
